scale,neutral,image1,image2,trials.thisRepN,trials.thisTrialN,trials.thisN,trials.thisIndex,trials_2.thisRepN,trials_2.thisTrialN,trials_2.thisN,trials_2.thisIndex,trials_3.thisRepN,trials_3.thisTrialN,trials_3.thisN,trials_3.thisIndex,thisRow.t,notes,trial.started,consent.started,key_resp.started,trial.stopped,key_resp.keys,key_resp.rt,key_resp.duration,NEP.started,text.started,text_2.started,slider.started,NEP.stopped,slider.response,slider.rt,social_neutral.started,text_3.started,text_4.started,slider_2.started,social_neutral.stopped,slider_2.response,slider_2.rt,env_instr.started,text_5.started,key_resp_2.started,env_instr.stopped,key_resp_2.keys,key_resp_2.rt,key_resp_2.duration,env_choice.started,A.started,B.started,key_resp_3.started,env_choice.stopped,key_resp_3.keys,key_resp_3.rt,key_resp_3.duration,participant,session,date,expName,psychopyVersion,frameRate,expStart
,,,,,,,,,,,,,,,,,,0.0036597,0.009254,0.009254,26.3972207,space,26.3799815,None,,,,,,,,,,,,,,,,,,,,,,,,,,,,,,06CONTROL,1,2024-11-22_16h11.38.605,control_priming_exp,2024.1.5,None,2024-11-22 16h11.56.362925 +0530
We are approaching the limit of the number of people the Earth can support.,,,,0,0,0,0,,,,,,,,,26.4337497,,,,,,,,,26.4020511,26.4337497,26.4337497,26.4337497,33.0142991,4,6.5861414,,,,,,,,,,,,,,,,,,,,,,,06CONTROL,1,2024-11-22_16h11.38.605,control_priming_exp,2024.1.5,None,2024-11-22 16h11.56.362925 +0530
When humans interfere with nature it often produces disastrous consequences.,,,,0,1,1,2,,,,,,,,,33.0416961,,,,,,,,,33.0148253,33.0416961,33.0416961,33.0416961,38.513764,5,5.4755589,,,,,,,,,,,,,,,,,,,,,,,06CONTROL,1,2024-11-22_16h11.38.605,control_priming_exp,2024.1.5,None,2024-11-22 16h11.56.362925 +0530
Human ingenuity will insure that we do not make the Earth unlivable.,,,,0,2,2,3,,,,,,,,,38.5386147,,,,,,,,,38.5140152,38.5386147,38.5386147,38.5386147,45.9447323,1,7.4072007,,,,,,,,,,,,,,,,,,,,,,,06CONTROL,1,2024-11-22_16h11.38.605,control_priming_exp,2024.1.5,None,2024-11-22 16h11.56.362925 +0530
The balance of nature is strong enough to cope with the impacts of modern industrial nations.,,,,0,3,3,7,,,,,,,,,45.9688172,,,,,,,,,45.9449919,45.9688172,45.9688172,45.9688172,51.2524602,2,5.282964,,,,,,,,,,,,,,,,,,,,,,,06CONTROL,1,2024-11-22_16h11.38.605,control_priming_exp,2024.1.5,None,2024-11-22 16h11.56.362925 +0530
The Earth has plenty of natural resources if we just learn how to develop them.,,,,0,4,4,5,,,,,,,,,51.2787416,,,,,,,,,51.2527176,51.2787416,51.2787416,51.2787416,55.4366401,2,4.1582102,,,,,,,,,,,,,,,,,,,,,,,06CONTROL,1,2024-11-22_16h11.38.605,control_priming_exp,2024.1.5,None,2024-11-22 16h11.56.362925 +0530
The so-called 'ecological crisis' facing humankind has been greatly exaggerated.,,,,0,5,5,9,,,,,,,,,55.4660572,,,,,,,,,55.437008,55.4660572,55.4660572,55.4660572,59.3931875,1,3.9276689,,,,,,,,,,,,,,,,,,,,,,,06CONTROL,1,2024-11-22_16h11.38.605,control_priming_exp,2024.1.5,None,2024-11-22 16h11.56.362925 +0530
Humans will eventually learn enough about how nature works to be able to control it.,,,,0,6,6,13,,,,,,,,,59.420482,,,,,,,,,59.393449,59.420482,59.420482,59.420482,67.9622782,2,8.5446951,,,,,,,,,,,,,,,,,,,,,,,06CONTROL,1,2024-11-22_16h11.38.605,control_priming_exp,2024.1.5,None,2024-11-22 16h11.56.362925 +0530
Humans have the right to modify the natural environment to suit their needs.,,,,0,7,7,1,,,,,,,,,67.9866549,,,,,,,,,67.962535,67.9866549,67.9866549,67.9866549,71.3754579,4,3.3893747,,,,,,,,,,,,,,,,,,,,,,,06CONTROL,1,2024-11-22_16h11.38.605,control_priming_exp,2024.1.5,None,2024-11-22 16h11.56.362925 +0530
"If things continue on their present course, we will soon experience a major ecological catastrophe.",,,,0,8,8,14,,,,,,,,,71.3984687,,,,,,,,,71.3757813,71.3984687,71.3984687,71.3984687,75.3648242,4,3.9664701,,,,,,,,,,,,,,,,,,,,,,,06CONTROL,1,2024-11-22_16h11.38.605,control_priming_exp,2024.1.5,None,2024-11-22 16h11.56.362925 +0530
The Earth is like a spaceship with very limited room and resources.,,,,0,9,9,10,,,,,,,,,75.388749,,,,,,,,,75.3650866,75.388749,75.388749,75.388749,78.2300872,4,2.8415449,,,,,,,,,,,,,,,,,,,,,,,06CONTROL,1,2024-11-22_16h11.38.605,control_priming_exp,2024.1.5,None,2024-11-22 16h11.56.362925 +0530
"Despite our special abilities, humans are still subject to the laws of nature.",,,,0,10,10,8,,,,,,,,,78.253659,,,,,,,,,78.2304563,78.253659,78.253659,78.253659,80.1170598,4,1.8632041,,,,,,,,,,,,,,,,,,,,,,,06CONTROL,1,2024-11-22_16h11.38.605,control_priming_exp,2024.1.5,None,2024-11-22 16h11.56.362925 +0530
Humans were meant to rule over the rest of nature.,,,,0,11,11,11,,,,,,,,,80.1424348,,,,,,,,,80.1173483,80.1424348,80.1424348,80.1424348,83.4834392,1,3.3409326,,,,,,,,,,,,,,,,,,,,,,,06CONTROL,1,2024-11-22_16h11.38.605,control_priming_exp,2024.1.5,None,2024-11-22 16h11.56.362925 +0530
Humans are seriously abusing the environment.,,,,0,12,12,4,,,,,,,,,83.5092966,,,,,,,,,83.4837922,83.5092966,83.5092966,83.5092966,151.7785164,5,68.2701045,,,,,,,,,,,,,,,,,,,,,,,06CONTROL,1,2024-11-22_16h11.38.605,control_priming_exp,2024.1.5,None,2024-11-22 16h11.56.362925 +0530
The balance of nature is very delicate and easily upset.,,,,0,13,13,12,,,,,,,,,151.803123,,,,,,,,,151.7787774,151.803123,151.803123,151.803123,153.9620606,5,2.1587348,,,,,,,,,,,,,,,,,,,,,,,06CONTROL,1,2024-11-22_16h11.38.605,control_priming_exp,2024.1.5,None,2024-11-22 16h11.56.362925 +0530
Plants and animals have as much right as humans to exist.,,,,0,14,14,6,,,,,,,,,153.9861136,,,,,,,,,153.9623044,153.9861136,153.9861136,153.9861136,157.9277828,5,3.9422999,,,,,,,,,,,,,,,,,,,,,,,06CONTROL,1,2024-11-22_16h11.38.605,control_priming_exp,2024.1.5,None,2024-11-22 16h11.56.362925 +0530
,"India's Chandrayaan-3 Mission: India successfully landed its spacecraft on the Moon's south pole, making it the fourth country to achieve this feat.",,,,,,,0,0,0,2,,,,,157.95899,,,,,,,,,,,,,,,,157.9307356,157.95899,157.95899,157.95899,163.1798528,1,5.2209278,,,,,,,,,,,,,,,,06CONTROL,1,2024-11-22_16h11.38.605,control_priming_exp,2024.1.5,None,2024-11-22 16h11.56.362925 +0530
,"Ukraine-Russia War: The ongoing conflict between Russia and Ukraine continues to impact global geopolitics, energy markets, and food security.",,,,,,,0,1,1,0,,,,,163.2057911,,,,,,,,,,,,,,,,163.1802214,163.2057911,163.2057911,163.2057911,164.4813061,1,1.2711668,,,,,,,,,,,,,,,,06CONTROL,1,2024-11-22_16h11.38.605,control_priming_exp,2024.1.5,None,2024-11-22 16h11.56.362925 +0530
,"Rise of Renewable Energy: Many countries are investing heavily in renewable energy sources like solar, wind, and hydro power to reduce reliance on fossil fuels and combat climate change.",,,,,,,0,2,2,1,,,,,164.5150876,,,,,,,,,,,,,,,,164.4816842,164.5150876,164.5150876,164.5150876,166.7311171,1,2.2165502,,,,,,,,,,,,,,,,06CONTROL,1,2024-11-22_16h11.38.605,control_priming_exp,2024.1.5,None,2024-11-22 16h11.56.362925 +0530
," Global Food Crisis: Several regions are facing food shortages and rising food prices due to factors like climate change, conflicts, and supply chain disruptions.??",,,,,,,0,3,3,4,,,,,166.7579194,,,,,,,,,,,,,,,,166.7314453,166.7579194,166.7579194,166.7579194,168.1480424,1,1.3892179,,,,,,,,,,,,,,,,06CONTROL,1,2024-11-22_16h11.38.605,control_priming_exp,2024.1.5,None,2024-11-22 16h11.56.362925 +0530
,Global Economic Slowdown: Concerns are growing about a potential global economic slowdown as major economies like the US and China face economic challenges.,,,,,,,0,4,4,3,,,,,168.1723857,,,,,,,,,,,,,,,,168.1482997,168.1723857,168.1723857,168.1723857,170.6329462,1,2.4571482,,,,,,,,,,,,,,,,06CONTROL,1,2024-11-22_16h11.38.605,control_priming_exp,2024.1.5,None,2024-11-22 16h11.56.362925 +0530
,,,,,,,,,,,,,,,,,,,,,,,,,,,,,,,,,,,,,,,170.6332114,170.6464116,170.6464116,173.565752,space,2.9085539,None,,,,,,,,,06CONTROL,1,2024-11-22_16h11.38.605,control_priming_exp,2024.1.5,None,2024-11-22 16h11.56.362925 +0530
,,images/A_apple.png,images/B_Apple.png,,,,,,,,,0,0,0,0,173.6606109,,,,,,,,,,,,,,,,,,,,,,,,,,,,,,173.5713248,173.6606109,173.6606109,173.6606109,189.4728145,right,15.8080798,None,06CONTROL,1,2024-11-22_16h11.38.605,control_priming_exp,2024.1.5,None,2024-11-22 16h11.56.362925 +0530
,,images/A_bottle.png,images/B_bottle.png,,,,,,,,,0,1,1,1,189.5186736,,,,,,,,,,,,,,,,,,,,,,,,,,,,,,189.474006,189.5186736,189.5186736,189.5186736,195.291394,left,5.7659159,None,06CONTROL,1,2024-11-22_16h11.38.605,control_priming_exp,2024.1.5,None,2024-11-22 16h11.56.362925 +0530
,,images/A_cloth.png,images/B_cloth.png,,,,,,,,,0,2,2,2,195.3381475,,,,,,,,,,,,,,,,,,,,,,,,,,,,,,195.292125,195.3381475,195.3381475,195.3381475,199.876979,right,4.526434,None,06CONTROL,1,2024-11-22_16h11.38.605,control_priming_exp,2024.1.5,None,2024-11-22 16h11.56.362925 +0530
,,images/A_detergent.png,images/B_detergent.png,,,,,,,,,0,3,3,3,199.9215013,,,,,,,,,,,,,,,,,,,,,,,,,,,,,,199.8779007,199.9215013,199.9215013,199.9215013,201.6275911,right,1.7029399,None,06CONTROL,1,2024-11-22_16h11.38.605,control_priming_exp,2024.1.5,None,2024-11-22 16h11.56.362925 +0530
,,images/A_facewash.png,images/B_facewash.png,,,,,,,,,0,4,4,4,201.6692813,,,,,,,,,,,,,,,,,,,,,,,,,,,,,,201.628493,201.6692813,201.6692813,201.6692813,204.3614317,right,2.6791912,None,06CONTROL,1,2024-11-22_16h11.38.605,control_priming_exp,2024.1.5,None,2024-11-22 16h11.56.362925 +0530
,,images/A_Light_Bulb.png,images/B_Light_Bulb.png,,,,,,,,,0,5,5,5,204.40471,,,,,,,,,,,,,,,,,,,,,,,,,,,,,,204.362206,204.40471,204.40471,204.40471,206.2954795,left,1.8883602,None,06CONTROL,1,2024-11-22_16h11.38.605,control_priming_exp,2024.1.5,None,2024-11-22 16h11.56.362925 +0530
,,images/A_shopping.png,images/B_shopping.png,,,,,,,,,0,6,6,6,206.3438764,,,,,,,,,,,,,,,,,,,,,,,,,,,,,,206.2960397,206.3438764,206.3438764,206.3438764,207.1452198,left,0.7927355,None,06CONTROL,1,2024-11-22_16h11.38.605,control_priming_exp,2024.1.5,None,2024-11-22 16h11.56.362925 +0530
,,images/A_toothpaste.png,images/B_toothpaste.png,,,,,,,,,0,7,7,7,207.192566,,,,,,,,,,,,,,,,,,,,,,,,,,,,,,207.1457483,207.192566,207.192566,207.192566,207.9130625,left,0.7119543,None,06CONTROL,1,2024-11-22_16h11.38.605,control_priming_exp,2024.1.5,None,2024-11-22 16h11.56.362925 +0530
,,images/A_transport.png,images/B_transport.png,,,,,,,,,0,8,8,8,207.9670353,,,,,,,,,,,,,,,,,,,,,,,,,,,,,,207.9137502,207.9670353,207.9670353,207.9670353,210.8466464,right,2.8706645,None,06CONTROL,1,2024-11-22_16h11.38.605,control_priming_exp,2024.1.5,None,2024-11-22 16h11.56.362925 +0530
