scale,neutral,image1,image2,trials.thisRepN,trials.thisTrialN,trials.thisN,trials.thisIndex,trials_2.thisRepN,trials_2.thisTrialN,trials_2.thisN,trials_2.thisIndex,trials_3.thisRepN,trials_3.thisTrialN,trials_3.thisN,trials_3.thisIndex,thisRow.t,notes,trial.started,consent.started,key_resp.started,trial.stopped,key_resp.keys,key_resp.rt,key_resp.duration,NEP.started,text.started,text_2.started,slider.started,NEP.stopped,slider.response,slider.rt,social_neutral.started,text_3.started,text_4.started,slider_2.started,social_neutral.stopped,slider_2.response,slider_2.rt,env_instr.started,text_5.started,key_resp_2.started,env_instr.stopped,key_resp_2.keys,key_resp_2.rt,key_resp_2.duration,env_choice.started,A.started,B.started,key_resp_3.started,env_choice.stopped,key_resp_3.keys,key_resp_3.rt,key_resp_3.duration,participant,session,date,expName,psychopyVersion,frameRate,expStart
,,,,,,,,,,,,,,,,,,0.0031329,0.012157,0.012157,1.2289115,space,1.2095844,None,,,,,,,,,,,,,,,,,,,,,,,,,,,,,,control07,1,2024-11-28_14h12.59.434,control_priming_exp,2024.1.5,None,2024-11-28 14h13.45.265461 +0530
The balance of nature is very delicate and easily upset.,,,,0,0,0,12,,,,,,,,,1.297572,,,,,,,,,1.2360064,1.297572,1.297572,1.297572,12.7694905,2,11.4979578,,,,,,,,,,,,,,,,,,,,,,,control07,1,2024-11-28_14h12.59.434,control_priming_exp,2024.1.5,None,2024-11-28 14h13.45.265461 +0530
"Despite our special abilities, humans are still subject to the laws of nature.",,,,0,1,1,8,,,,,,,,,12.7978497,,,,,,,,,12.7700133,12.7978497,12.7978497,12.7978497,13.7142047,2,0.9161159,,,,,,,,,,,,,,,,,,,,,,,control07,1,2024-11-28_14h12.59.434,control_priming_exp,2024.1.5,None,2024-11-28 14h13.45.265461 +0530
Humans were meant to rule over the rest of nature.,,,,0,2,2,11,,,,,,,,,13.7388427,,,,,,,,,13.7144743,13.7388427,13.7388427,13.7388427,14.8743212,3,1.1366575,,,,,,,,,,,,,,,,,,,,,,,control07,1,2024-11-28_14h12.59.434,control_priming_exp,2024.1.5,None,2024-11-28 14h13.45.265461 +0530
The Earth is like a spaceship with very limited room and resources.,,,,0,3,3,10,,,,,,,,,14.9041803,,,,,,,,,14.8746418,14.9041803,14.9041803,14.9041803,19.8571275,2,4.9579445,,,,,,,,,,,,,,,,,,,,,,,control07,1,2024-11-28_14h12.59.434,control_priming_exp,2024.1.5,None,2024-11-28 14h13.45.265461 +0530
Humans are seriously abusing the environment.,,,,0,4,4,4,,,,,,,,,19.881021,,,,,,,,,19.8576244,19.881021,19.881021,19.881021,24.1703388,2,4.2895676,,,,,,,,,,,,,,,,,,,,,,,control07,1,2024-11-28_14h12.59.434,control_priming_exp,2024.1.5,None,2024-11-28 14h13.45.265461 +0530
We are approaching the limit of the number of people the Earth can support.,,,,0,5,5,0,,,,,,,,,24.1996418,,,,,,,,,24.1712337,24.1996418,24.1996418,24.1996418,28.7618208,2,4.5660795,,,,,,,,,,,,,,,,,,,,,,,control07,1,2024-11-28_14h12.59.434,control_priming_exp,2024.1.5,None,2024-11-28 14h13.45.265461 +0530
The so-called 'ecological crisis' facing humankind has been greatly exaggerated.,,,,0,6,6,9,,,,,,,,,28.7895338,,,,,,,,,28.7621643,28.7895338,28.7895338,28.7895338,33.5714051,4,4.780832,,,,,,,,,,,,,,,,,,,,,,,control07,1,2024-11-28_14h12.59.434,control_priming_exp,2024.1.5,None,2024-11-28 14h13.45.265461 +0530
Plants and animals have as much right as humans to exist.,,,,0,7,7,6,,,,,,,,,33.5959855,,,,,,,,,33.5716786,33.5959855,33.5959855,33.5959855,40.691555,3,7.0946418,,,,,,,,,,,,,,,,,,,,,,,control07,1,2024-11-28_14h12.59.434,control_priming_exp,2024.1.5,None,2024-11-28 14h13.45.265461 +0530
The balance of nature is strong enough to cope with the impacts of modern industrial nations.,,,,0,8,8,7,,,,,,,,,40.7170613,,,,,,,,,40.6918272,40.7170613,40.7170613,40.7170613,55.551298,2,14.8334747,,,,,,,,,,,,,,,,,,,,,,,control07,1,2024-11-28_14h12.59.434,control_priming_exp,2024.1.5,None,2024-11-28 14h13.45.265461 +0530
The Earth has plenty of natural resources if we just learn how to develop them.,,,,0,9,9,5,,,,,,,,,55.578246,,,,,,,,,55.551695,55.578246,55.578246,55.578246,62.7791731,3,7.2009996,,,,,,,,,,,,,,,,,,,,,,,control07,1,2024-11-28_14h12.59.434,control_priming_exp,2024.1.5,None,2024-11-28 14h13.45.265461 +0530
Humans have the right to modify the natural environment to suit their needs.,,,,0,10,10,1,,,,,,,,,62.8095132,,,,,,,,,62.7797723,62.8095132,62.8095132,62.8095132,67.1254241,5,4.3188361,,,,,,,,,,,,,,,,,,,,,,,control07,1,2024-11-28_14h12.59.434,control_priming_exp,2024.1.5,None,2024-11-28 14h13.45.265461 +0530
Humans will eventually learn enough about how nature works to be able to control it.,,,,0,11,11,13,,,,,,,,,67.1501287,,,,,,,,,67.1256774,67.1501287,67.1501287,67.1501287,70.90625,4,3.7531327,,,,,,,,,,,,,,,,,,,,,,,control07,1,2024-11-28_14h12.59.434,control_priming_exp,2024.1.5,None,2024-11-28 14h13.45.265461 +0530
When humans interfere with nature it often produces disastrous consequences.,,,,0,12,12,2,,,,,,,,,70.9298839,,,,,,,,,70.9070355,70.9298839,70.9298839,70.9298839,76.6623411,2,5.7312882,,,,,,,,,,,,,,,,,,,,,,,control07,1,2024-11-28_14h12.59.434,control_priming_exp,2024.1.5,None,2024-11-28 14h13.45.265461 +0530
"If things continue on their present course, we will soon experience a major ecological catastrophe.",,,,0,13,13,14,,,,,,,,,76.6906608,,,,,,,,,76.6626002,76.6906608,76.6906608,76.6906608,83.2992917,2,6.6047739,,,,,,,,,,,,,,,,,,,,,,,control07,1,2024-11-28_14h12.59.434,control_priming_exp,2024.1.5,None,2024-11-28 14h13.45.265461 +0530
Human ingenuity will insure that we do not make the Earth unlivable.,,,,0,14,14,3,,,,,,,,,83.3273493,,,,,,,,,83.2998387,83.3273493,83.3273493,83.3273493,93.9610375,2,10.6311118,,,,,,,,,,,,,,,,,,,,,,,control07,1,2024-11-28_14h12.59.434,control_priming_exp,2024.1.5,None,2024-11-28 14h13.45.265461 +0530
,Global Economic Slowdown: Concerns are growing about a potential global economic slowdown as major economies like the US and China face economic challenges.,,,,,,,0,0,0,3,,,,,93.9960782,,,,,,,,,,,,,,,,93.966339,93.9960782,93.9960782,93.9960782,98.5463695,1,4.5530895,,,,,,,,,,,,,,,,control07,1,2024-11-28_14h12.59.434,control_priming_exp,2024.1.5,None,2024-11-28 14h13.45.265461 +0530
,"Rise of Renewable Energy: Many countries are investing heavily in renewable energy sources like solar, wind, and hydro power to reduce reliance on fossil fuels and combat climate change.",,,,,,,0,1,1,1,,,,,98.5732854,,,,,,,,,,,,,,,,98.5467102,98.5732854,98.5732854,98.5732854,106.6326766,1,8.0600009,,,,,,,,,,,,,,,,control07,1,2024-11-28_14h12.59.434,control_priming_exp,2024.1.5,None,2024-11-28 14h13.45.265461 +0530
,"Ukraine-Russia War: The ongoing conflict between Russia and Ukraine continues to impact global geopolitics, energy markets, and food security.",,,,,,,0,2,2,0,,,,,106.6563548,,,,,,,,,,,,,,,,106.632927,106.6563548,106.6563548,106.6563548,111.9194485,1,5.2592959,,,,,,,,,,,,,,,,control07,1,2024-11-28_14h12.59.434,control_priming_exp,2024.1.5,None,2024-11-28 14h13.45.265461 +0530
," Global Food Crisis: Several regions are facing food shortages and rising food prices due to factors like climate change, conflicts, and supply chain disruptions.??",,,,,,,0,3,3,4,,,,,111.9486168,,,,,,,,,,,,,,,,111.919817,111.9486168,111.9486168,111.9486168,122.0998406,1,10.1500736,,,,,,,,,,,,,,,,control07,1,2024-11-28_14h12.59.434,control_priming_exp,2024.1.5,None,2024-11-28 14h13.45.265461 +0530
,"India's Chandrayaan-3 Mission: India successfully landed its spacecraft on the Moon's south pole, making it the fourth country to achieve this feat.",,,,,,,0,4,4,2,,,,,122.1246117,,,,,,,,,,,,,,,,122.1000986,122.1246117,122.1246117,122.1246117,131.3357112,1,9.204985,,,,,,,,,,,,,,,,control07,1,2024-11-28_14h12.59.434,control_priming_exp,2024.1.5,None,2024-11-28 14h13.45.265461 +0530
,,,,,,,,,,,,,,,,,,,,,,,,,,,,,,,,,,,,,,,131.3362691,131.3412497,131.3412497,133.6595079,space,2.3027452,None,,,,,,,,,control07,1,2024-11-28_14h12.59.434,control_priming_exp,2024.1.5,None,2024-11-28 14h13.45.265461 +0530
,,images/A_apple.png,images/B_Apple.png,,,,,,,,,0,0,0,0,133.7751673,,,,,,,,,,,,,,,,,,,,,,,,,,,,,,133.666051,133.7751673,133.7751673,133.7751673,136.477064,right,2.6855923,None,control07,1,2024-11-28_14h12.59.434,control_priming_exp,2024.1.5,None,2024-11-28 14h13.45.265461 +0530
,,images/A_bottle.png,images/B_bottle.png,,,,,,,,,0,1,1,1,136.5221575,,,,,,,,,,,,,,,,,,,,,,,,,,,,,,136.4776944,136.5221575,136.5221575,136.5221575,138.3130871,left,1.7870213,None,control07,1,2024-11-28_14h12.59.434,control_priming_exp,2024.1.5,None,2024-11-28 14h13.45.265461 +0530
,,images/A_cloth.png,images/B_cloth.png,,,,,,,,,0,2,2,2,138.372254,,,,,,,,,,,,,,,,,,,,,,,,,,,,,,138.3140856,138.372254,138.372254,138.372254,147.8989981,left,9.512996,None,control07,1,2024-11-28_14h12.59.434,control_priming_exp,2024.1.5,None,2024-11-28 14h13.45.265461 +0530
,,images/A_detergent.png,images/B_detergent.png,,,,,,,,,0,3,3,3,147.9523378,,,,,,,,,,,,,,,,,,,,,,,,,,,,,,147.899922,147.9523378,147.9523378,147.9523378,149.4160038,right,1.446435,None,control07,1,2024-11-28_14h12.59.434,control_priming_exp,2024.1.5,None,2024-11-28 14h13.45.265461 +0530
,,images/A_facewash.png,images/B_facewash.png,,,,,,,,,0,4,4,4,149.4782672,,,,,,,,,,,,,,,,,,,,,,,,,,,,,,149.4169989,149.4782672,149.4782672,149.4782672,151.6012874,right,2.1063927,None,control07,1,2024-11-28_14h12.59.434,control_priming_exp,2024.1.5,None,2024-11-28 14h13.45.265461 +0530
,,images/A_Light_Bulb.png,images/B_Light_Bulb.png,,,,,,,,,0,5,5,5,151.6517768,,,,,,,,,,,,,,,,,,,,,,,,,,,,,,151.6021884,151.6517768,151.6517768,151.6517768,154.3346168,right,2.6710865,None,control07,1,2024-11-28_14h12.59.434,control_priming_exp,2024.1.5,None,2024-11-28 14h13.45.265461 +0530
,,images/A_shopping.png,images/B_shopping.png,,,,,,,,,0,6,6,6,154.3809046,,,,,,,,,,,,,,,,,,,,,,,,,,,,,,154.3354827,154.3809046,154.3809046,154.3809046,155.4016891,right,1.0036233,None,control07,1,2024-11-28_14h12.59.434,control_priming_exp,2024.1.5,None,2024-11-28 14h13.45.265461 +0530
,,images/A_toothpaste.png,images/B_toothpaste.png,,,,,,,,,0,7,7,7,155.4498575,,,,,,,,,,,,,,,,,,,,,,,,,,,,,,155.4025651,155.4498575,155.4498575,155.4498575,157.6196843,left,2.1538442,None,control07,1,2024-11-28_14h12.59.434,control_priming_exp,2024.1.5,None,2024-11-28 14h13.45.265461 +0530
,,images/A_transport.png,images/B_transport.png,,,,,,,,,0,8,8,8,157.6778303,,,,,,,,,,,,,,,,,,,,,,,,,,,,,,157.620625,157.6778303,157.6778303,157.6778303,158.9378565,right,1.256179,None,control07,1,2024-11-28_14h12.59.434,control_priming_exp,2024.1.5,None,2024-11-28 14h13.45.265461 +0530
