scale,neutral,image1,image2,trials.thisRepN,trials.thisTrialN,trials.thisN,trials.thisIndex,trials_2.thisRepN,trials_2.thisTrialN,trials_2.thisN,trials_2.thisIndex,trials_3.thisRepN,trials_3.thisTrialN,trials_3.thisN,trials_3.thisIndex,thisRow.t,notes,trial.started,consent.started,key_resp.started,trial.stopped,key_resp.keys,key_resp.rt,key_resp.duration,NEP.started,text.started,text_2.started,slider.started,NEP.stopped,slider.response,slider.rt,social_neutral.started,text_3.started,text_4.started,slider_2.started,social_neutral.stopped,slider_2.response,slider_2.rt,env_instr.started,text_5.started,key_resp_2.started,env_instr.stopped,key_resp_2.keys,key_resp_2.rt,key_resp_2.duration,env_choice.started,A.started,B.started,key_resp_3.started,env_choice.stopped,key_resp_3.keys,key_resp_3.rt,key_resp_3.duration,participant,session,date,expName,psychopyVersion,frameRate,expStart
,,,,,,,,,,,,,,,,,,0.0026321,0.0076672,0.0076672,8.309557,space,8.2883554,None,,,,,,,,,,,,,,,,,,,,,,,,,,,,,,ysg,1,2024-11-22_16h51.35.967,control_priming_exp,2024.1.5,None,2024-11-22 16h51.50.968124 +0530
Human ingenuity will insure that we do not make the Earth unlivable.,,,,0,0,0,3,,,,,,,,,8.3514298,,,,,,,,,8.3162059,8.3514298,8.3514298,8.3514298,29.8220592,4,21.4753885,,,,,,,,,,,,,,,,,,,,,,,ysg,1,2024-11-22_16h51.35.967,control_priming_exp,2024.1.5,None,2024-11-22 16h51.50.968124 +0530
Plants and animals have as much right as humans to exist.,,,,0,1,1,6,,,,,,,,,29.8501575,,,,,,,,,29.8252138,29.8501575,29.8501575,29.8501575,34.3824553,4,4.5297693,,,,,,,,,,,,,,,,,,,,,,,ysg,1,2024-11-22_16h51.35.967,control_priming_exp,2024.1.5,None,2024-11-22 16h51.50.968124 +0530
"Despite our special abilities, humans are still subject to the laws of nature.",,,,0,2,2,8,,,,,,,,,34.4098571,,,,,,,,,34.3828853,34.4098571,34.4098571,34.4098571,42.3817102,4,7.9727534,,,,,,,,,,,,,,,,,,,,,,,ysg,1,2024-11-22_16h51.35.967,control_priming_exp,2024.1.5,None,2024-11-22 16h51.50.968124 +0530
Humans will eventually learn enough about how nature works to be able to control it.,,,,0,3,3,13,,,,,,,,,42.4069833,,,,,,,,,42.3820938,42.4069833,42.4069833,42.4069833,48.3351784,4,5.9276717,,,,,,,,,,,,,,,,,,,,,,,ysg,1,2024-11-22_16h51.35.967,control_priming_exp,2024.1.5,None,2024-11-22 16h51.50.968124 +0530
The balance of nature is very delicate and easily upset.,,,,0,4,4,12,,,,,,,,,48.3596328,,,,,,,,,48.3354479,48.3596328,48.3596328,48.3596328,57.4960357,4,9.1372267,,,,,,,,,,,,,,,,,,,,,,,ysg,1,2024-11-22_16h51.35.967,control_priming_exp,2024.1.5,None,2024-11-22 16h51.50.968124 +0530
When humans interfere with nature it often produces disastrous consequences.,,,,0,5,5,2,,,,,,,,,57.5237948,,,,,,,,,57.496456,57.5237948,57.5237948,57.5237948,63.2066882,4,5.6845529,,,,,,,,,,,,,,,,,,,,,,,ysg,1,2024-11-22_16h51.35.967,control_priming_exp,2024.1.5,None,2024-11-22 16h51.50.968124 +0530
The balance of nature is strong enough to cope with the impacts of modern industrial nations.,,,,0,6,6,7,,,,,,,,,63.2431417,,,,,,,,,63.2070598,63.2431417,63.2431417,63.2431417,68.3483744,4,5.11161,,,,,,,,,,,,,,,,,,,,,,,ysg,1,2024-11-22_16h51.35.967,control_priming_exp,2024.1.5,None,2024-11-22 16h51.50.968124 +0530
The Earth has plenty of natural resources if we just learn how to develop them.,,,,0,7,7,5,,,,,,,,,68.3767791,,,,,,,,,68.3486331,68.3767791,68.3767791,68.3767791,84.648303,2,16.2732594,,,,,,,,,,,,,,,,,,,,,,,ysg,1,2024-11-22_16h51.35.967,control_priming_exp,2024.1.5,None,2024-11-22 16h51.50.968124 +0530
Humans are seriously abusing the environment.,,,,0,8,8,4,,,,,,,,,84.6755551,,,,,,,,,84.6485649,84.6755551,84.6755551,84.6755551,88.1690237,4,3.4948192,,,,,,,,,,,,,,,,,,,,,,,ysg,1,2024-11-22_16h51.35.967,control_priming_exp,2024.1.5,None,2024-11-22 16h51.50.968124 +0530
We are approaching the limit of the number of people the Earth can support.,,,,0,9,9,0,,,,,,,,,88.193231,,,,,,,,,88.1692971,88.193231,88.193231,88.193231,93.319625,4,5.1255905,,,,,,,,,,,,,,,,,,,,,,,ysg,1,2024-11-22_16h51.35.967,control_priming_exp,2024.1.5,None,2024-11-22 16h51.50.968124 +0530
Humans were meant to rule over the rest of nature.,,,,0,10,10,11,,,,,,,,,93.3455067,,,,,,,,,93.3199867,93.3455067,93.3455067,93.3455067,97.590454,2,4.2451943,,,,,,,,,,,,,,,,,,,,,,,ysg,1,2024-11-22_16h51.35.967,control_priming_exp,2024.1.5,None,2024-11-22 16h51.50.968124 +0530
Humans have the right to modify the natural environment to suit their needs.,,,,0,11,11,1,,,,,,,,,97.6159113,,,,,,,,,97.5907102,97.6159113,97.6159113,97.6159113,113.0425778,2,15.4279464,,,,,,,,,,,,,,,,,,,,,,,ysg,1,2024-11-22_16h51.35.967,control_priming_exp,2024.1.5,None,2024-11-22 16h51.50.968124 +0530
"If things continue on their present course, we will soon experience a major ecological catastrophe.",,,,0,12,12,14,,,,,,,,,113.0670099,,,,,,,,,113.0428517,113.0670099,113.0670099,113.0670099,134.1204594,4,21.0533175,,,,,,,,,,,,,,,,,,,,,,,ysg,1,2024-11-22_16h51.35.967,control_priming_exp,2024.1.5,None,2024-11-22 16h51.50.968124 +0530
The Earth is like a spaceship with very limited room and resources.,,,,0,13,13,10,,,,,,,,,134.1464544,,,,,,,,,134.1207201,134.1464544,134.1464544,134.1464544,140.3463725,4,6.1986102,,,,,,,,,,,,,,,,,,,,,,,ysg,1,2024-11-22_16h51.35.967,control_priming_exp,2024.1.5,None,2024-11-22 16h51.50.968124 +0530
The so-called 'ecological crisis' facing humankind has been greatly exaggerated.,,,,0,14,14,9,,,,,,,,,140.3747806,,,,,,,,,140.3466937,140.3747806,140.3747806,140.3747806,211.9162657,2,71.5423035,,,,,,,,,,,,,,,,,,,,,,,ysg,1,2024-11-22_16h51.35.967,control_priming_exp,2024.1.5,None,2024-11-22 16h51.50.968124 +0530
,Global Economic Slowdown: Concerns are growing about a potential global economic slowdown as major economies like the US and China face economic challenges.,,,,,,,0,0,0,3,,,,,211.9484145,,,,,,,,,,,,,,,,211.9199783,211.9484145,211.9484145,211.9484145,262.7685052,1,50.8177888,,,,,,,,,,,,,,,,ysg,1,2024-11-22_16h51.35.967,control_priming_exp,2024.1.5,None,2024-11-22 16h51.50.968124 +0530
,"India's Chandrayaan-3 Mission: India successfully landed its spacecraft on the Moon's south pole, making it the fourth country to achieve this feat.",,,,,,,0,1,1,2,,,,,262.7972453,,,,,,,,,,,,,,,,262.7690254,262.7972453,262.7972453,262.7972453,272.8905307,1,10.0893844,,,,,,,,,,,,,,,,ysg,1,2024-11-22_16h51.35.967,control_priming_exp,2024.1.5,None,2024-11-22 16h51.50.968124 +0530
,"Rise of Renewable Energy: Many countries are investing heavily in renewable energy sources like solar, wind, and hydro power to reduce reliance on fossil fuels and combat climate change.",,,,,,,0,2,2,1,,,,,272.9173223,,,,,,,,,,,,,,,,272.890941,272.9173223,272.9173223,272.9173223,289.1618229,1,16.2420507,,,,,,,,,,,,,,,,ysg,1,2024-11-22_16h51.35.967,control_priming_exp,2024.1.5,None,2024-11-22 16h51.50.968124 +0530
," Global Food Crisis: Several regions are facing food shortages and rising food prices due to factors like climate change, conflicts, and supply chain disruptions.??",,,,,,,0,3,3,4,,,,,289.1915199,,,,,,,,,,,,,,,,289.1620886,289.1915199,289.1915199,289.1915199,297.7815216,1,8.5886584,,,,,,,,,,,,,,,,ysg,1,2024-11-22_16h51.35.967,control_priming_exp,2024.1.5,None,2024-11-22 16h51.50.968124 +0530
,"Ukraine-Russia War: The ongoing conflict between Russia and Ukraine continues to impact global geopolitics, energy markets, and food security.",,,,,,,0,4,4,0,,,,,297.806283,,,,,,,,,,,,,,,,297.7817778,297.806283,297.806283,297.806283,331.078407,1,33.2709352,,,,,,,,,,,,,,,,ysg,1,2024-11-22_16h51.35.967,control_priming_exp,2024.1.5,None,2024-11-22 16h51.50.968124 +0530
,,,,,,,,,,,,,,,,,,,,,,,,,,,,,,,,,,,,,,,331.078682,331.0917859,331.0917859,355.5362256,space,24.4387704,None,,,,,,,,,ysg,1,2024-11-22_16h51.35.967,control_priming_exp,2024.1.5,None,2024-11-22 16h51.50.968124 +0530
,,images/A_apple.png,images/B_Apple.png,,,,,,,,,0,0,0,0,355.6529319,,,,,,,,,,,,,,,,,,,,,,,,,,,,,,355.5412453,355.6529319,355.6529319,355.6529319,365.3918557,left,9.7359342,None,ysg,1,2024-11-22_16h51.35.967,control_priming_exp,2024.1.5,None,2024-11-22 16h51.50.968124 +0530
,,images/A_bottle.png,images/B_bottle.png,,,,,,,,,0,1,1,1,365.440892,,,,,,,,,,,,,,,,,,,,,,,,,,,,,,365.3928705,365.440892,365.440892,365.440892,369.2427462,left,3.7847651,None,ysg,1,2024-11-22_16h51.35.967,control_priming_exp,2024.1.5,None,2024-11-22 16h51.50.968124 +0530
,,images/A_cloth.png,images/B_cloth.png,,,,,,,,,0,2,2,2,369.3061522,,,,,,,,,,,,,,,,,,,,,,,,,,,,,,369.2441565,369.3061522,369.3061522,369.3061522,372.6766573,right,3.3671592,None,ysg,1,2024-11-22_16h51.35.967,control_priming_exp,2024.1.5,None,2024-11-22 16h51.50.968124 +0530
,,images/A_detergent.png,images/B_detergent.png,,,,,,,,,0,3,3,3,372.7418369,,,,,,,,,,,,,,,,,,,,,,,,,,,,,,372.6772166,372.7418369,372.7418369,372.7418369,381.5808788,left,8.8341879,None,ysg,1,2024-11-22_16h51.35.967,control_priming_exp,2024.1.5,None,2024-11-22 16h51.50.968124 +0530
,,images/A_facewash.png,images/B_facewash.png,,,,,,,,,0,4,4,4,381.641115,,,,,,,,,,,,,,,,,,,,,,,,,,,,,,381.5817202,381.641115,381.641115,381.641115,391.3343049,left,9.6865523,None,ysg,1,2024-11-22_16h51.35.967,control_priming_exp,2024.1.5,None,2024-11-22 16h51.50.968124 +0530
,,images/A_Light_Bulb.png,images/B_Light_Bulb.png,,,,,,,,,0,5,5,5,391.3890306,,,,,,,,,,,,,,,,,,,,,,,,,,,,,,391.3350935,391.3890306,391.3890306,391.3890306,397.7865577,right,6.3821306,None,ysg,1,2024-11-22_16h51.35.967,control_priming_exp,2024.1.5,None,2024-11-22 16h51.50.968124 +0530
,,images/A_shopping.png,images/B_shopping.png,,,,,,,,,0,6,6,6,397.8332236,,,,,,,,,,,,,,,,,,,,,,,,,,,,,,397.7872997,397.8332236,397.8332236,397.8332236,406.4236895,left,8.5735738,None,ysg,1,2024-11-22_16h51.35.967,control_priming_exp,2024.1.5,None,2024-11-22 16h51.50.968124 +0530
,,images/A_toothpaste.png,images/B_toothpaste.png,,,,,,,,,0,7,7,7,406.4770031,,,,,,,,,,,,,,,,,,,,,,,,,,,,,,406.4246824,406.4770031,406.4770031,406.4770031,419.5124932,left,13.0315919,None,ysg,1,2024-11-22_16h51.35.967,control_priming_exp,2024.1.5,None,2024-11-22 16h51.50.968124 +0530
,,images/A_transport.png,images/B_transport.png,,,,,,,,,0,8,8,8,419.5848449,,,,,,,,,,,,,,,,,,,,,,,,,,,,,,419.5133459,419.5848449,419.5848449,419.5848449,479.4693617,left,59.8812323,None,ysg,1,2024-11-22_16h51.35.967,control_priming_exp,2024.1.5,None,2024-11-22 16h51.50.968124 +0530
